TITLE	Myoglobin 3M Urea chemische denaturierung
DATA TYPE	
ORIGIN	JASCO
OWNER	
DATE	18/07/12
TIME	11:37:54
SPECTROMETER/DATA SYSTEM	
LOCALE	1031
RESOLUTION	
DELTAX	-0,1
XUNITS	NANOMETERS
YUNITS	CD [mdeg]
Y2UNITS	HT [V]
Y3UNITS	ABSORBANCE
FIRSTX	  250,0000
LASTX	  208,0000
NPOINTS	     421
FIRSTY	     0,75985
MAXY	     0,75985
MINY	   -30,14626
XYDATA
250,0000	0,759849	221,456	0,27828
249,9000	0,758757	221,558	0,279604
249,8000	0,756533	221,656	0,28088
249,7000	0,757975	221,755	0,282163
249,6000	0,75967	221,855	0,283464
249,5000	0,711879	221,953	0,284727
249,4000	0,692869	222,054	0,286042
249,3000	0,663076	222,153	0,287319
249,2000	0,7058	222,251	0,288595
249,1000	0,696283	222,352	0,289907
249,0000	0,693286	222,453	0,291211
248,9000	0,691827	222,557	0,292558
248,8000	0,621952	222,658	0,293871
248,7000	0,64243	222,76	0,295196
248,6000	0,601422	222,863	0,296537
248,5000	0,632829	222,962	0,29782
248,4000	0,621867	223,063	0,299125
248,3000	0,640299	223,158	0,300365
248,2000	0,605111	223,255	0,301618
248,1000	0,589347	223,357	0,30294
248,0000	0,602909	223,46	0,304271
247,9000	0,563759	223,567	0,305659
247,8000	0,588682	223,67	0,307006
247,7000	0,61814	223,778	0,308396
247,6000	0,587396	223,887	0,309818
247,5000	0,536153	223,998	0,31125
247,4000	0,566343	224,111	0,312721
247,3000	0,578831	224,22	0,314136
247,2000	0,565334	224,329	0,315544
247,1000	0,568203	224,437	0,316945
247,0000	0,51558	224,544	0,318341
246,9000	0,529832	224,654	0,319764
246,8000	0,458492	224,763	0,321176
246,7000	0,442434	224,875	0,322625
246,6000	0,294847	224,983	0,324031
246,5000	0,26406	225,093	0,325451
246,4000	0,283813	225,206	0,326916
246,3000	0,307918	225,317	0,328358
246,2000	0,304093	225,43	0,329822
246,1000	0,301107	225,54	0,331254
246,0000	0,266007	225,652	0,332711
245,9000	0,277089	225,766	0,334185
245,8000	0,326927	225,879	0,33565
245,7000	0,434357	225,998	0,337197
245,6000	0,40717	226,115	0,338713
245,5000	0,403984	226,232	0,340227
245,4000	0,394155	226,351	0,34177
245,3000	0,337388	226,472	0,343341
245,2000	0,321366	226,597	0,344963
245,1000	0,304346	226,717	0,346518
245,0000	0,274027	226,838	0,348094
244,9000	0,17615	226,959	0,349658
244,8000	0,136595	227,077	0,351191
244,7000	0,0766663	227,199	0,352777
244,6000	-0,0324015	227,32	0,354337
244,5000	-0,0549133	227,442	0,355917
244,4000	-0,0708679	227,561	0,35747
244,3000	-0,0537048	227,681	0,35902
244,2000	-0,0711833	227,807	0,360657
244,1000	-0,121586	227,933	0,362288
244,0000	-0,205111	228,063	0,363975
243,9000	-0,185291	228,193	0,365657
243,8000	-0,161947	228,322	0,367337
243,7000	-0,177887	228,454	0,369043
243,6000	-0,237181	228,586	0,370758
243,5000	-0,293298	228,722	0,372524
243,4000	-0,339642	228,856	0,374265
243,3000	-0,383905	228,989	0,375984
243,2000	-0,409723	229,122	0,377715
243,1000	-0,502753	229,254	0,37943
243,0000	-0,569348	229,39	0,381191
242,9000	-0,65436	229,523	0,382907
242,8000	-0,692678	229,655	0,384631
242,7000	-0,761564	229,788	0,386351
242,6000	-0,782587	229,924	0,388108
242,5000	-0,791825	230,062	0,389902
242,4000	-0,819661	230,198	0,391673
242,3000	-0,842249	230,336	0,393456
242,2000	-0,879242	230,473	0,39524
242,1000	-0,950753	230,613	0,397047
242,0000	-0,998077	230,756	0,398905
241,9000	-1,0212	230,898	0,400752
241,8000	-1,09383	231,042	0,402615
241,7000	-1,19466	231,185	0,404467
241,6000	-1,28552	231,331	0,406362
241,5000	-1,38753	231,48	0,408294
241,4000	-1,53056	231,63	0,410237
241,3000	-1,60171	231,784	0,412236
241,2000	-1,66639	231,936	0,414208
241,1000	-1,76592	232,091	0,41622
241,0000	-1,91317	232,248	0,418258
240,9000	-1,97067	232,404	0,420282
240,8000	-2,06797	232,563	0,422348
240,7000	-2,17525	232,721	0,424389
240,6000	-2,13677	232,879	0,426437
240,5000	-2,18991	233,036	0,428472
240,4000	-2,26768	233,193	0,430515
240,3000	-2,36357	233,355	0,43261
240,2000	-2,4128	233,516	0,434698
240,1000	-2,42878	233,681	0,436848
240,0000	-2,50238	233,85	0,439035
239,9000	-2,61657	234,02	0,441234
239,8000	-2,76505	234,193	0,443485
239,7000	-2,89997	234,366	0,445732
239,6000	-2,97989	234,541	0,448002
239,5000	-3,05429	234,717	0,450277
239,4000	-3,18616	234,891	0,452542
239,3000	-3,28983	235,07	0,454852
239,2000	-3,47325	235,243	0,457099
239,1000	-3,49167	235,42	0,459393
239,0000	-3,532	235,598	0,461708
238,9000	-3,61487	235,774	0,463995
238,8000	-3,74303	235,954	0,466319
238,7000	-3,85898	236,134	0,468655
238,6000	-3,90743	236,318	0,471045
238,5000	-3,99265	236,5	0,473399
238,4000	-4,06098	236,681	0,475753
238,3000	-4,20785	236,865	0,478133
238,2000	-4,42641	237,047	0,480498
238,1000	-4,57048	237,236	0,482952
238,0000	-4,72475	237,423	0,48538
237,9000	-4,81872	237,612	0,487833
237,8000	-4,99834	237,802	0,490294
237,7000	-5,20078	237,994	0,492783
237,6000	-5,34773	238,193	0,495358
237,5000	-5,45811	238,392	0,497947
237,4000	-5,56527	238,595	0,500574
237,3000	-5,68112	238,798	0,50321
237,2000	-5,79577	239,002	0,505853
237,1000	-5,89823	239,21	0,50856
237,0000	-6,06934	239,417	0,511233
236,9000	-6,16322	239,626	0,513949
236,8000	-6,30499	239,834	0,516645
236,7000	-6,46388	240,04	0,519314
236,6000	-6,62089	240,242	0,52194
236,5000	-6,74509	240,443	0,524547
236,4000	-6,87604	240,648	0,52721
236,3000	-7,03045	240,854	0,529873
236,2000	-7,15971	241,059	0,532541
236,1000	-7,25336	241,267	0,535232
236,0000	-7,34571	241,475	0,537932
235,9000	-7,54585	241,689	0,540701
235,8000	-7,65031	241,903	0,543477
235,7000	-7,89707	242,12	0,546295
235,6000	-8,0453	242,338	0,549117
235,5000	-8,22116	242,555	0,551942
235,4000	-8,46719	242,778	0,554826
235,3000	-8,66301	243,001	0,55772
235,2000	-8,93855	243,228	0,560661
235,1000	-9,08596	243,454	0,5636
235,0000	-9,29677	243,681	0,566537
234,9000	-9,49998	243,91	0,569519
234,8000	-9,66203	244,137	0,572455
234,7000	-9,89349	244,367	0,575435
234,6000	-10,031	244,596	0,578404
234,5000	-10,1897	244,825	0,581377
234,4000	-10,4068	245,055	0,58437
234,3000	-10,5982	245,286	0,587355
234,2000	-10,7878	245,52	0,590393
234,1000	-10,9571	245,752	0,593406
234,0000	-11,1654	245,989	0,596473
233,9000	-11,4324	246,231	0,599615
233,8000	-11,7209	246,472	0,602738
233,7000	-11,967	246,716	0,605906
233,6000	-12,1284	246,96	0,609073
233,5000	-12,3908	247,206	0,612265
233,4000	-12,6982	247,456	0,615507
233,3000	-12,9249	247,709	0,618781
233,2000	-13,1598	247,965	0,6221
233,1000	-13,3445	248,218	0,62539
233,0000	-13,5103	248,475	0,62872
232,9000	-13,6521	248,733	0,632066
232,8000	-13,8622	248,991	0,63541
232,7000	-14,1457	249,252	0,638798
232,6000	-14,2734	249,512	0,642166
232,5000	-14,5243	249,771	0,645532
232,4000	-14,7957	250,032	0,648914
232,3000	-15,0433	250,292	0,652294
232,2000	-15,2815	250,557	0,65572
232,1000	-15,5776	250,819	0,659125
232,0000	-15,8959	251,087	0,662598
231,9000	-16,1219	251,354	0,666056
231,8000	-16,3962	251,62	0,669511
231,7000	-16,6279	251,895	0,673074
231,6000	-16,8348	252,168	0,676613
231,5000	-16,9936	252,445	0,68021
231,4000	-17,2611	252,722	0,68381
231,3000	-17,4287	253,005	0,687479
231,2000	-17,6259	253,289	0,691158
231,1000	-17,9256	253,572	0,694828
231,0000	-18,1503	253,86	0,698571
230,9000	-18,4288	254,145	0,702265
230,8000	-18,6573	254,435	0,706025
230,7000	-18,9471	254,727	0,709812
230,6000	-19,2123	255,02	0,713609
230,5000	-19,4803	255,314	0,717429
230,4000	-19,7218	255,606	0,721206
230,3000	-19,8943	255,901	0,725041
230,2000	-20,1085	256,195	0,728855
230,1000	-20,2976	256,49	0,73268
230,0000	-20,4467	256,788	0,736542
229,9000	-20,6916	257,082	0,74036
229,8000	-20,9349	257,377	0,744175
229,7000	-21,2032	257,669	0,747969
229,6000	-21,4199	257,964	0,751788
229,5000	-21,7538	258,259	0,755621
229,4000	-22,0069	258,551	0,7594
229,3000	-22,2928	258,847	0,76324
229,2000	-22,633	259,14	0,76704
229,1000	-22,9189	259,432	0,770837
229,0000	-23,171	259,728	0,774673
228,9000	-23,3581	260,022	0,778488
228,8000	-23,6051	260,315	0,782291
228,7000	-23,8011	260,609	0,786096
228,6000	-23,9661	260,905	0,78994
228,5000	-24,2168	261,199	0,793745
228,4000	-24,2896	261,493	0,797564
228,3000	-24,4196	261,789	0,801405
228,2000	-24,5845	262,079	0,805166
228,1000	-24,8107	262,372	0,80896
228,0000	-25,0314	262,666	0,812777
227,9000	-25,1904	262,958	0,816562
227,8000	-25,3445	263,251	0,820367
227,7000	-25,4967	263,545	0,824174
227,6000	-25,5756	263,839	0,827996
227,5000	-25,8041	264,127	0,831732
227,4000	-26,0413	264,417	0,835485
227,3000	-26,2243	264,713	0,839331
227,2000	-26,3985	265,008	0,843153
227,1000	-26,5308	265,303	0,846986
227,0000	-26,656	265,596	0,850782
226,9000	-26,7783	265,887	0,85456
226,8000	-26,9922	266,178	0,858327
226,7000	-27,1024	266,471	0,862127
226,6000	-27,2081	266,769	0,865995
226,5000	-27,3156	267,061	0,869782
226,4000	-27,434	267,35	0,873527
226,3000	-27,5352	267,64	0,877287
226,2000	-27,7558	267,928	0,881027
226,1000	-28,0212	268,22	0,884814
226,0000	-28,2694	268,511	0,888588
225,9000	-28,3916	268,805	0,892396
225,8000	-28,5032	269,094	0,896151
225,7000	-28,6024	269,386	0,89993
225,6000	-28,769	269,68	0,903745
225,5000	-28,8367	269,974	0,907561
225,4000	-28,933	270,271	0,911414
225,3000	-28,979	270,568	0,915261
225,2000	-28,9131	270,866	0,919126
225,1000	-29,0659	271,164	0,923003
225,0000	-29,118	271,465	0,926902
224,9000	-29,2683	271,766	0,930809
224,8000	-29,1985	272,068	0,934719
224,7000	-29,213	272,374	0,938689
224,6000	-29,3116	272,683	0,942702
224,5000	-29,3831	272,99	0,946682
224,4000	-29,4582	273,302	0,950728
224,3000	-29,4997	273,614	0,954769
224,2000	-29,5411	273,927	0,958828
224,1000	-29,5657	274,243	0,962928
224,0000	-29,7087	274,56	0,96704
223,9000	-29,8856	274,878	0,971172
223,8000	-29,8712	275,192	0,975242
223,7000	-29,9513	275,508	0,979339
223,6000	-29,9735	275,825	0,983445
223,5000	-29,9185	276,143	0,987579
223,4000	-29,9125	276,467	0,991778
223,3000	-29,9615	276,788	0,995938
223,2000	-29,9348	277,111	1,00013
223,1000	-29,9703	277,436	1,00434
223,0000	-29,8649	277,765	1,00861
222,9000	-29,9871	278,098	1,01285
222,8000	-29,9652	278,433	1,01658
222,7000	-30,0364	278,768	1,02032
222,6000	-30,0382	279,101	1,02404
222,5000	-30,1059	279,439	1,02779
222,4000	-30,1129	279,78	1,03159
222,3000	-30,1119	280,119	1,03536
222,2000	-30,1463	280,46	1,03915
222,1000	-30,1351	280,801	1,04293
222,0000	-30,1202	281,145	1,04675
221,9000	-30,0769	281,489	1,05057
221,8000	-30,042	281,835	1,0544
221,7000	-30,0306	282,186	1,05828
221,6000	-30,0261	282,536	1,06215
221,5000	-29,9363	282,891	1,06608
221,4000	-29,9443	283,25	1,07004
221,3000	-29,9715	283,611	1,07402
221,2000	-29,9536	283,976	1,07805
221,1000	-30,0003	284,34	1,08206
221,0000	-30,003	284,712	1,08616
220,9000	-29,9965	285,086	1,09027
220,8000	-29,9672	285,464	1,09443
220,7000	-30,0001	285,849	1,09866
220,6000	-29,8771	286,232	1,10286
220,5000	-29,9056	286,621	1,10712
220,4000	-29,7919	287,012	1,11141
220,3000	-29,5786	287,408	1,11574
220,2000	-29,5824	287,808	1,12011
220,1000	-29,6278	288,204	1,12444
220,0000	-29,4776	288,608	1,12885
219,9000	-29,4215	289,009	1,13324
219,8000	-29,3617	289,416	1,13767
219,7000	-29,2478	289,828	1,14215
219,6000	-29,238	290,237	1,14661
219,5000	-29,1674	290,657	1,15117
219,4000	-29,1063	291,082	1,15578
219,3000	-28,889	291,52	1,16054
219,2000	-28,797	291,97	1,16542
219,1000	-28,7682	292,43	1,17039
219,0000	-28,7699	292,903	1,17551
218,9000	-28,7216	293,384	1,18071
218,8000	-28,6669	293,881	1,18607
218,7000	-28,7429	294,392	1,19158
218,6000	-28,6208	294,91	1,19716
218,5000	-28,4956	295,436	1,20282
218,4000	-28,4267	295,963	1,20849
218,3000	-28,3693	296,497	1,21421
218,2000	-28,3128	297,038	1,22002
218,1000	-28,281	297,583	1,22585
218,0000	-28,2683	298,136	1,23177
217,9000	-28,1655	298,689	1,23768
217,8000	-28,085	299,251	1,24367
217,7000	-28,199	299,819	1,24972
217,6000	-28,2075	300,396	1,25586
217,5000	-28,1072	300,982	1,2621
217,4000	-28,1199	301,573	1,26836
217,3000	-27,9236	302,173	1,27473
217,2000	-27,8835	302,779	1,28114
217,1000	-27,7375	303,397	1,28768
217,0000	-27,7047	304,021	1,29427
216,9000	-27,6727	304,652	1,30092
216,8000	-27,6449	305,292	1,30765
216,7000	-27,7991	305,936	1,31442
216,6000	-27,7614	306,591	1,3213
216,5000	-27,8315	307,256	1,32826
216,4000	-27,6968	307,93	1,33531
216,3000	-27,7419	308,615	1,34247
216,2000	-27,6923	309,307	1,3497
216,1000	-27,6089	310,011	1,35703
216,0000	-27,3534	310,722	1,36443
215,9000	-27,2225	311,445	1,37193
215,8000	-27,0438	312,18	1,37955
215,7000	-26,7788	312,926	1,38727
215,6000	-26,7593	313,684	1,3951
215,5000	-26,8319	314,454	1,40304
215,4000	-26,9756	315,238	1,41111
215,3000	-26,838	316,038	1,41933
215,2000	-26,9504	316,853	1,42769
215,1000	-26,9198	317,686	1,43622
215,0000	-26,8798	318,532	1,44486
214,9000	-26,9471	319,397	1,45368
214,8000	-27,0185	320,273	1,46259
214,7000	-26,9199	321,167	1,47167
214,6000	-26,7639	322,084	1,48096
214,5000	-26,7171	323,019	1,49042
214,4000	-26,8032	323,97	1,50001
214,3000	-26,7851	324,942	1,5098
214,2000	-26,6767	325,934	1,51976
214,1000	-26,6372	326,949	1,52994
214,0000	-26,6039	327,99	1,54034
213,9000	-26,659	329,055	1,55096
213,8000	-26,5491	330,141	1,56176
213,7000	-26,5906	331,249	1,57275
213,6000	-26,4259	332,384	1,58398
213,5000	-26,5129	333,546	1,59544
213,4000	-26,7709	334,74	1,60719
213,3000	-26,8105	335,967	1,61923
213,2000	-26,7953	337,224	1,63151
213,1000	-26,8226	338,512	1,64407
213,0000	-26,9516	339,826	1,65685
212,9000	-27,023	341,175	1,66992
212,8000	-27,1064	342,561	1,6833
212,7000	-27,0485	343,981	1,69696
212,6000	-26,9887	345,438	1,71093
212,5000	-26,9803	346,921	1,7251
212,4000	-26,826	348,434	1,7395
212,3000	-26,7853	349,982	1,75417
212,2000	-26,8211	351,559	1,76908
212,1000	-26,8062	353,174	1,78427
212,0000	-26,9344	354,814	1,79963
211,9000	-26,9438	356,481	1,81518
211,8000	-26,9329	358,177	1,83094
211,7000	-26,6313	359,926	1,84712
211,6000	-26,8098	361,739	1,86381
211,5000	-27,1835	363,617	1,88102
211,4000	-26,9372	365,571	1,89884
211,3000	-26,9448	367,595	1,9172
211,2000	-26,7304	369,698	1,93617
211,1000	-26,6225	371,894	1,95588
211,0000	-26,7529	374,177	1,97624
210,9000	-27,0605	376,547	1,99724
210,8000	-27,2978	378,991	2,01877
210,7000	-27,1139	381,525	2,04094
210,6000	-27,0058	384,145	2,0637
210,5000	-27,1889	386,853	2,08705
210,4000	-27,1712	389,66	2,11108
210,3000	-27,5865	392,553	2,13565
210,2000	-27,818	395,543	2,16083
210,1000	-27,9241	398,636	2,18667
210,0000	-27,6525	401,834	2,21314
209,9000	-27,6804	405,134	2,24019
209,8000	-27,7495	408,533	2,26779
209,7000	-27,8459	412,047	2,29604
209,6000	-27,8867	415,672	2,32488
209,5000	-27,7472	419,426	2,35441
209,4000	-27,8554	423,312	2,38464
209,3000	-27,3604	427,338	2,41558
209,2000	-27,5542	431,506	2,4472
209,1000	-26,8573	435,822	2,47951
209,0000	-26,8945	440,295	2,51161
208,9000	-26,5518	444,939	2,54379
208,8000	-26,1227	449,744	2,57691
208,7000	-25,7228	454,725	2,61106
208,6000	-25,5163	459,879	2,64619
208,5000	-25,3785	465,222	2,68239
208,4000	-25,1946	470,748	2,71961
208,3000	-24,8015	476,474	2,75792
208,2000	-24,6155	482,387	2,79722
208,1000	-24,3471	488,496	2,83753
208,0000	-23,6863	494,82	2,87897

##### Extended Information
[Comments]
Sample name	Myoglobin 3M Urea chemische denaturierung
Comment	Myoglobin 3M Urea chemische denaturierung
User
Division
Company	Univ. Bayreuth

[Detailed Information]
Creation date	12.07.2018 11:37

Data array type	Linear data array * 3
Horizontal axis	Wavelength [nm]
Vertical axis(1)	CD [mdeg]
Vertical axis(2)	HT [V]
Vertical axis(3)	Abs
Start	250 nm
End	208 nm
Data interval	0,1 nm
Data points	421     

[Measurement Information]
Instrument Name	Univ. Bayreuth
Model Name	J-815
Serial No.	A017361168

Accessory	PTC-423S
Accessory S/N	A008461181
  Temperature	30.50 C
  Control Sonsor	Holder
  Monitor Sensor	Holder
  Start Mode	Keep target temperature +/-0.10 deg C while 5 seconds
  Cell Length	10 mm

Measurement date	12.07.2018 11:37

Photometric Mode	CD, HT, Abs
Measure Range	250 - 208 nm
Data pitch	0.1 nm
Sensitivity	Standard
D.I.T.	0.5 sec
Bandwidth	3.41 nm
Start Mode	Immediately
Scanning Speed	100 nm/min
Baseline Correction	None
Shutter Control	Auto
CD Detector	PMT
PMT Voltage	Auto
Accumulations	3

